29/10/2021	14:57
Experiment Type:	Sizing
Pseudo Cross Correlation
Scattering angle:	15.0
Duration (s):	60
Wavelength (nm):	660.0
Refractive index:	1.330
Viscosity (mPas):	0.973
Temperature (K):	294.3
Laser intensity (mW):	81.918000
Average Count rate  A (kHz):	67.3
Average Count rate  B (kHz):	64.2
Intercept:	0.3657
Cumulant 1st	-Inf
Cumulant 2nd	-Inf	NaN
Cumulant 3rd	-Inf	NaN

Lag time (s)         g2-1
1.250000E-8	0.435852
2.500000E-8	0.420369
3.750000E-8	0.398952
5.000000E-8	0.367490
6.250000E-8	0.355721
7.500000E-8	0.406919
8.750000E-8	0.381218
1.000000E-7	0.378395
1.125000E-7	0.373206
1.250000E-7	0.381605
1.375000E-7	0.381277
1.500000E-7	0.413666
1.625000E-7	0.390597
1.750000E-7	0.356884
1.875000E-7	0.392651
2.000000E-7	0.364866
2.125000E-7	0.358551
2.375000E-7	0.389489
2.625000E-7	0.375951
2.875000E-7	0.370498
3.125000E-7	0.370063
3.375000E-7	0.394262
3.625000E-7	0.367216
3.875000E-7	0.373455
4.125000E-7	0.370544
4.625000E-7	0.379128
5.125000E-7	0.376591
5.625000E-7	0.370200
6.125000E-7	0.373897
6.625000E-7	0.384230
7.125000E-7	0.378519
7.625000E-7	0.378626
8.125000E-7	0.374645
9.125000E-7	0.368483
1.012500E-6	0.369796
1.112500E-6	0.374362
1.212500E-6	0.376981
1.312500E-6	0.382208
1.412500E-6	0.366875
1.512500E-6	0.381736
1.612500E-6	0.378208
1.812500E-6	0.376360
2.012500E-6	0.379875
2.212500E-6	0.377274
2.412500E-6	0.379265
2.612500E-6	0.372332
2.812500E-6	0.379054
3.012500E-6	0.382547
3.212500E-6	0.381261
3.612500E-6	0.375536
4.012500E-6	0.375503
4.412500E-6	0.374589
4.812500E-6	0.378165
5.212500E-6	0.377335
5.612500E-6	0.375361
6.012500E-6	0.377730
6.412500E-6	0.378981
7.212500E-6	0.375683
8.012500E-6	0.375864
8.812500E-6	0.378066
9.612500E-6	0.376215
1.041250E-5	0.377061
1.121250E-5	0.375212
1.201250E-5	0.378534
1.281250E-5	0.376239
1.441250E-5	0.374748
1.601250E-5	0.375454
1.761250E-5	0.378361
1.921250E-5	0.373975
2.081250E-5	0.374877
2.241250E-5	0.374414
2.401250E-5	0.376024
2.561250E-5	0.373768
2.881250E-5	0.376345
3.201250E-5	0.373344
3.521250E-5	0.373484
3.841250E-5	0.374420
4.161250E-5	0.374685
4.481250E-5	0.374053
4.801250E-5	0.375166
5.121250E-5	0.375468
5.761250E-5	0.374115
6.401250E-5	0.375329
7.041250E-5	0.373351
7.681250E-5	0.373429
8.321250E-5	0.374324
8.961250E-5	0.373281
9.601250E-5	0.372320
0.000102	0.372270
0.000115	0.372305
0.000128	0.372592
0.000141	0.371926
0.000154	0.371722
0.000166	0.370946
0.000179	0.370808
0.000192	0.371134
0.000205	0.370720
0.000230	0.369950
0.000256	0.369117
0.000282	0.369468
0.000307	0.368291
0.000333	0.368252
0.000358	0.367384
0.000384	0.366658
0.000410	0.366100
0.000461	0.365079
0.000512	0.364174
0.000563	0.363126
0.000614	0.361977
0.000666	0.360717
0.000717	0.359878
0.000768	0.358731
0.000819	0.357679
0.000922	0.355878
0.001024	0.354057
0.001126	0.352145
0.001229	0.350442
0.001331	0.348723
0.001434	0.346762
0.001536	0.345291
0.001638	0.343618
0.001843	0.340564
0.002048	0.337441
0.002253	0.334415
0.002458	0.331325
0.002662	0.328283
0.002867	0.325429
0.003072	0.322499
0.003277	0.319989
0.003686	0.314752
0.004096	0.309269
0.004506	0.304259
0.004915	0.299422
0.005325	0.294617
0.005734	0.289917
0.006144	0.285403
0.006554	0.280994
0.007373	0.272375
0.008192	0.263879
0.009011	0.255661
0.009830	0.247985
0.010650	0.240364
0.011469	0.233362
0.012288	0.226587
0.013107	0.220010
0.014746	0.207171
0.016384	0.194835
0.018022	0.183712
0.019661	0.172928
0.021299	0.162803
0.022938	0.153185
0.024576	0.144011
0.026214	0.135673
0.029491	0.119812
0.032768	0.106953
0.036045	0.095218
0.039322	0.084957
0.042598	0.076619
0.045875	0.069405
0.049152	0.062669
0.052429	0.058367
0.058982	0.053097
0.065536	0.047960
0.072090	0.043881
0.078643	0.037900
0.085197	0.031967
0.091750	0.026880
0.098304	0.022886
0.104858	0.020722
0.117965	0.017805
0.131072	0.019747
0.144179	0.021328
0.157286	0.018952
0.170394	0.014018
0.183501	0.013549
0.196608	0.015029
0.209715	0.017675
0.235930	0.021904
0.262144	0.028857
0.288358	0.025438
0.314573	0.020295
0.340787	0.019418
0.367002	0.022790
0.393216	0.027203
0.419430	0.026358
0.471859	0.025054
0.524288	0.022038
0.576717	0.024036
0.629146	0.026103
0.681574	0.023876
0.734003	0.024977
0.786432	0.020612
0.838861	0.019976
0.943718	0.022738
1.048576	0.018973
1.153434	0.022075
1.258291	0.025446
1.363149	0.023586
1.468006	0.016535
1.572864	0.019404
1.677722	0.022023
1.887437	0.023200
2.097152	0.022765
2.306867	0.022867
2.516582	0.027900
2.726298	0.027425
2.936013	0.026102
3.145728	0.031483
3.355443	0.025675
3.774873	0.026438
4.194304	0.029406
4.613734	0.028066
5.033165	0.027233
5.452595	0.027352
5.872025	0.031017
6.291456	0.022774
6.710886	0.023293
7.549747	0.031092
8.388608	0.030484
9.227468	0.024553
10.066330	0.024577
10.905190	0.026526
11.744051	0.028999
12.582912	0.024888
13.421773	0.025466
15.099494	0.022674
16.777216	0.022516
18.454937	0.029201
20.132660	0.035319
21.810381	0.039868
23.488102	0.035665
25.165825	0.036442
26.843546	0.032516
30.198988	0.029052
33.554432	0.027938
36.909874	0.021038
40.265320	0.034554
43.620762	0.046276

Count Rate History (KHz)  CR CHA / CR CHB
0.000000	58.326721	57.106018
0.052429	66.900253	62.789917
0.104858	33.512116	32.482147
0.157286	52.356720	49.028397
0.209715	62.198639	58.994293
0.262144	66.566468	61.597824
0.314573	39.920806	37.431717
0.367002	41.828156	40.063858
0.419430	44.155121	41.971207
0.471859	87.842942	85.287094
0.524288	143.814087	135.126114
0.576717	58.794021	55.742264
0.629146	50.907135	48.713684
0.681574	44.088364	43.745041
0.734003	47.807693	47.616958
0.786432	53.157806	50.191879
0.838861	55.246353	55.389404
0.891290	72.841645	69.255829
0.943718	40.512085	38.681030
0.996147	39.939881	39.567948
1.048576	64.487457	61.903000
1.101005	62.952041	62.456131
1.153434	51.622391	47.903061
1.205862	54.817200	53.129196
1.258291	38.928985	38.852691
1.310720	46.215057	44.717789
1.363149	52.556992	50.821304
1.415578	56.095123	53.033829
1.468006	56.991577	54.388046
1.520435	79.021454	76.198578
1.572864	94.022751	89.845657
1.625293	63.028335	58.879852
1.677722	52.690506	49.886703
1.730150	46.014786	42.791367
1.782579	43.506622	40.931702
1.835008	54.578781	51.946640
1.887437	72.898865	70.972442
1.939866	39.615631	37.345887
1.992294	48.751832	46.987533
2.044723	52.719116	52.223206
2.097152	70.705414	66.986084
2.149581	94.261169	89.282989
2.202010	55.341721	53.052902
2.254438	47.092438	45.375824
2.306867	82.969666	82.101822
2.359296	55.503845	53.482056
2.411725	41.923523	40.998459
2.464154	68.874359	68.931579
2.516582	69.656372	65.765380
2.569011	56.924820	53.625107
2.621440	70.934296	67.777634
2.673869	71.887970	68.712234
2.726298	92.945099	86.832047
2.778726	60.625076	57.687759
2.831155	63.533783	60.577393
2.883584	63.848495	60.558319
2.936013	42.257309	40.388108
2.988442	54.244996	53.310394
3.040870	48.627854	46.186447
3.093299	65.765381	63.562393
3.145728	81.291199	75.140000
3.198157	47.435761	47.941208
3.250586	57.373047	55.589676
3.303014	63.228607	61.912537
3.355443	73.118210	69.780350
3.407872	46.348572	45.423507
3.460301	58.145523	54.473877
3.512730	51.450729	49.753189
3.565158	65.145493	62.875748
3.617587	52.757263	50.077438
3.670016	47.636032	45.871735
3.722445	48.313141	45.461654
3.774874	36.144256	36.039352
3.827302	47.788620	45.709610
3.879731	39.253235	38.404465
3.932160	37.536621	38.223267
3.984589	44.746399	42.219162
4.037018	82.454681	78.535080
4.089446	69.122315	66.633224
4.141875	63.228607	59.537887
4.194304	65.155029	61.588287
4.246733	66.089630	62.952041
4.299162	46.710968	47.340393
4.351590	76.761246	73.013306
4.404019	76.828003	72.727204
4.456448	71.849823	68.435669
4.508877	51.822662	50.649643
4.561306	49.629211	46.358109
4.613734	49.943924	46.825409
4.666163	47.998429	46.434402
4.718592	61.693192	60.443878
4.771021	104.618072	99.067688
4.823450	55.055618	52.280426
4.875878	49.514770	49.324035
4.928307	48.036575	46.634675
4.980736	56.285858	55.065155
5.033165	51.956177	49.648285
5.085594	55.217743	53.138733
5.138022	100.564957	95.081329
5.190451	52.518845	50.048828
5.242880	43.697358	41.885376
5.295309	36.678314	36.821365
5.347738	48.503876	45.900345
5.400166	71.792603	67.205429
5.452595	74.539185	71.630477
5.505024	76.074601	72.956085
5.557453	72.479248	68.426132
5.609882	52.528381	50.458908
5.662310	55.465698	51.155091
5.714739	75.674057	71.763993
5.767168	35.762787	34.990310
5.819597	63.476562	62.608719
5.872026	79.574585	76.484680
5.924454	38.700103	37.240982
5.976883	50.983429	48.484802
6.029312	68.168640	65.288544
6.081741	52.824021	50.315857
6.134170	46.758652	43.849945
6.186598	50.544739	50.554276
6.239027	74.434280	70.343018
6.291456	90.131759	85.945130
6.343885	79.011918	74.615478
6.396314	71.687699	69.065094
6.448742	102.739334	95.348359
6.501171	60.911179	58.975219
6.553600	75.120925	71.897506
6.606029	95.214844	88.872909
6.658458	50.582886	46.453476
6.710886	74.110031	72.975159
6.763315	38.738251	38.051605
6.815744	42.152405	41.151047
6.868173	94.919205	92.964173
6.920602	79.221726	75.941085
6.973030	61.321258	57.582855
7.025459	51.031113	49.076080
7.077888	57.945251	55.322648
7.130317	66.556930	63.066482
7.182746	60.672760	57.897568
7.235174	74.262619	69.627762
7.287603	49.018860	47.597886
7.340032	36.468506	36.010742
7.392461	48.532486	46.806336
7.444890	54.655075	53.596497
7.497318	58.145523	56.638718
7.549747	43.582916	42.972565
7.602176	66.509247	63.905716
7.654605	45.347213	43.249130
7.707034	53.415298	51.422119
7.759462	60.262680	60.749054
7.811891	63.724518	60.997010
7.864320	67.605973	64.592361
7.916749	61.235428	59.719086
7.969178	50.220489	46.863556
8.021606	66.184998	62.789917
8.074035	42.877197	42.037964
8.126464	69.084167	64.220428
8.178893	83.665848	79.479218
8.231322	47.798157	44.260025
8.283750	54.607391	52.394867
8.336179	58.755874	57.573318
8.388608	68.674087	64.983368
8.441037	53.319931	51.116943
8.493466	58.994293	56.467056
8.545894	57.764054	54.759979
8.598323	42.991638	42.028427
8.650752	49.858093	48.217773
8.703181	61.998368	58.612824
8.755610	87.080002	83.875656
8.808038	95.615387	92.773438
8.860467	84.743500	81.367492
8.912896	87.299346	83.379745
8.965325	95.348358	92.077256
9.017754	86.755753	83.065033
9.070182	67.043305	61.197280
9.122611	70.543290	67.338943
9.175040	71.420670	67.911148
9.227469	65.860748	63.400268
9.279898	37.899017	36.869049
9.332326	43.325424	41.360855
9.384755	62.427521	60.777665
9.437184	56.400299	53.234100
9.489613	142.259598	133.018494
9.542042	71.144104	68.120957
9.594470	44.059753	41.713715
9.646899	54.292678	52.909851
9.699328	52.042007	50.039292
9.751757	61.416626	60.606003
9.804186	66.986084	63.047409
9.856614	74.815750	71.191788
9.909043	48.303604	48.313141
9.961472	100.421906	97.188950
10.013901	93.622208	90.312958
10.066330	64.334869	61.054230
10.118758	44.794083	44.336319
10.171187	54.721832	52.833557
10.223616	59.795380	57.106018
10.276045	58.727265	56.819916
10.328474	47.960282	46.749115
10.380902	80.757141	77.381134
10.433331	73.947907	70.991516
10.485760	61.092377	58.031082
10.538189	66.423416	64.420700
10.590618	67.710876	65.965653
10.643046	51.069260	49.133301
10.695475	55.017471	52.356720
10.747904	103.607178	99.906921
10.800333	50.210953	48.904419
10.852762	40.645599	39.129257
10.905190	55.408478	51.460266
10.957619	53.024292	52.957535
11.010048	59.900284	59.232712
11.062477	43.258667	41.770935
11.114906	72.689056	69.208146
11.167334	91.257095	85.439682
11.219763	86.746216	82.712173
11.272192	73.137283	68.559646
11.324621	82.712173	78.048706
11.377050	81.863403	78.506470
11.429478	48.656464	46.730041
11.481907	68.588257	64.668655
11.534336	85.048676	80.175400
11.586765	61.168671	58.937072
11.639194	72.488785	69.427491
11.691622	68.044663	64.935685
11.744051	75.140000	73.146820
11.796480	69.751739	67.882537
11.848909	67.415237	62.742233
11.901338	65.927505	62.122345
11.953766	59.928894	58.088303
12.006195	84.857940	79.813004
12.058624	98.991394	94.442368
12.111053	87.652207	84.552765
12.163482	48.379898	45.785904
12.215910	53.615570	52.967072
12.268339	84.104538	77.991485
12.320768	100.202561	95.434189
12.373197	80.451966	77.104568
12.425626	73.757171	68.817139
12.478054	44.555664	42.943955
12.530483	41.913987	40.493012
12.582912	62.866210	61.349868
12.635341	47.950744	44.965744
12.687770	69.093705	66.385269
12.740198	69.198609	65.574646
12.792627	71.735382	67.148208
12.845056	88.691711	81.977845
12.897485	53.339005	51.631928
12.949914	42.600632	41.790009
13.002342	84.056854	81.329346
13.054771	81.853866	78.096390
13.107200	59.881211	56.114197
13.159629	47.407150	45.146942
13.212058	58.536530	54.664612
13.264486	74.386596	71.611404
13.316915	70.400238	66.595078
13.369344	99.420547	92.458725
13.421773	79.603195	75.244903
13.474202	48.999786	47.473907
13.526630	101.490020	97.742081
13.579059	121.984482	115.613938
13.631488	91.409683	87.480545
13.683917	63.381195	59.900284
13.736346	62.580108	61.511994
13.788774	62.208176	60.462952
13.841203	79.917907	73.928833
13.893632	47.426224	47.111511
13.946061	85.105896	80.327988
13.998490	80.251694	77.075958
14.050918	50.401687	48.065185
14.103347	56.533814	54.159165
14.155776	74.396133	70.133209
14.208205	54.349899	54.321289
14.260634	68.655014	66.661835
14.313062	39.453507	38.175583
14.365491	42.648315	40.340423
14.417920	97.217559	92.124939
14.470349	82.206726	75.531006
14.522778	55.694580	52.061081
14.575206	86.908341	84.333420
14.627635	63.877106	60.958862
14.680064	49.791336	49.247742
14.732493	38.232804	36.067963
14.784922	37.479400	38.185119
14.837350	70.600510	69.398880
14.889779	104.503631	99.248886
14.942208	122.661590	115.108490
14.994637	56.495666	52.251816
15.047066	88.939667	83.198547
15.099494	66.871643	64.401626
15.151923	79.574585	73.347092
15.204352	94.757080	90.503692
15.256781	102.367401	95.977783
15.309210	64.716339	61.073303
15.361638	59.738160	56.848526
15.414067	37.193298	37.336349
15.466496	36.830903	35.104751
15.518925	43.630600	41.780472
15.571354	74.367524	69.465637
15.623782	101.470947	96.073150
15.676211	61.130524	57.277680
15.728640	79.584122	76.189041
15.781069	76.856613	73.909760
15.833498	69.437027	65.279007
15.885926	45.633316	45.890808
15.938355	61.321258	60.615539
15.990784	94.680786	88.987350
16.043213	59.509277	57.716369
16.095642	53.510666	49.800872
16.148070	60.596466	58.841706
16.200499	55.599213	54.006577
16.252928	49.276352	47.760010
16.305357	56.228637	53.730011
16.357786	50.315857	49.238205
16.410214	62.532425	59.452057
16.462643	156.698227	148.897171
16.515072	102.405548	96.721649
16.567501	75.941086	71.134567
16.619930	81.663131	78.229904
16.672358	33.349991	31.642914
16.724787	73.814392	72.669983
16.777216	53.663254	52.042007
16.829645	59.671402	56.676865
16.882074	46.243668	44.641495
16.934502	37.393570	36.334992
16.986931	47.492981	45.738220
17.039360	53.024292	50.029754
17.091789	62.665939	59.146881
17.144218	74.663162	71.096420
17.196646	49.409866	47.302246
17.249075	40.683746	40.826797
17.301504	58.135986	56.600571
17.353933	57.773590	54.292679
17.406362	49.371719	46.882630
17.458790	54.187775	53.682327
17.511219	52.118301	50.659180
17.563648	55.866242	54.168701
17.616077	51.536560	49.943923
17.668506	51.050186	48.713684
17.720934	67.930222	63.533783
17.773363	75.845719	70.886612
17.825792	64.640045	61.368943
17.878221	39.873123	37.727356
17.930650	43.697357	42.667389
17.983078	68.092346	63.676834
18.035507	70.295334	66.738129
18.087936	54.874420	52.947998
18.140365	47.502517	45.938492
18.192794	49.934387	47.883987
18.245222	73.356628	69.522858
18.297651	65.431594	63.333512
18.350080	57.325363	54.664612
18.402509	36.849975	35.343170
18.454938	38.890839	36.144256
18.507366	86.975097	81.577301
18.559795	63.686371	61.416626
18.612224	42.219162	41.217804
18.664653	36.869049	34.780502
18.717082	49.324036	47.397614
18.769510	56.619644	55.618286
18.821939	43.058396	40.483474
18.874368	43.926239	43.478012
18.926797	64.573288	62.818527
18.979226	109.472275	101.900101
19.031654	65.088272	63.486100
19.084083	64.506530	60.901642
19.136512	67.138672	64.773560
19.188941	41.503906	39.224625
19.241370	62.961579	60.749054
19.293798	72.660446	70.018768
19.346227	78.420639	74.005127
19.398656	109.863281	102.672576
19.451085	66.747665	64.735412
19.503514	60.253143	58.984757
19.555942	42.448044	41.418076
19.608371	49.610138	49.266815
19.660800	52.556992	51.651000
19.713229	60.577393	57.811737
19.765658	51.546097	49.552917
19.818086	97.436905	93.374252
19.870515	46.148300	44.260025
19.922944	72.364808	69.522858
19.975373	68.368911	66.394806
20.027802	53.730011	51.183701
20.080230	49.161911	47.712326
20.132659	39.243698	38.442611
20.185088	68.101883	67.462921
20.237517	36.411285	35.247803
20.289946	79.259873	74.882508
20.342374	117.158890	112.485885
20.394803	83.055496	78.401566
20.447232	97.799301	92.296600
20.499661	68.016052	64.888001
20.552090	56.953430	54.855346
20.604518	42.562484	41.494370
20.656947	88.977813	83.284378
20.709376	74.062348	71.630477
20.761805	43.134690	40.197373
20.814234	64.716340	62.017441
20.866662	104.446412	100.240707
20.919091	82.187653	81.167221
20.971520	64.153671	60.997009
21.023949	68.759918	66.833496
21.076378	65.317153	63.495636
21.128806	71.458816	67.539215
21.181235	44.794083	42.943955
21.233664	48.608779	47.101974
21.286093	62.742233	59.442520
21.338522	61.912537	60.462952
21.390950	61.864853	58.698654
21.443379	47.388076	46.110153
21.495808	56.457520	53.157806
21.548237	48.160553	46.300888
21.600666	69.255829	66.862107
21.653094	49.629211	49.037933
21.705523	52.042007	51.088333
21.757952	65.689087	63.438416
21.810381	134.992600	127.239227
21.862810	77.543259	75.492859
21.915238	44.384003	43.411255
21.967667	55.418014	52.280426
22.020096	50.411224	49.343109
22.072525	40.502548	40.149688
22.124954	60.358047	58.279038
22.177382	67.253113	64.983368
22.229811	64.783096	64.344406
22.282240	76.732636	74.043274
22.334669	64.716339	61.998368
22.387098	42.066574	40.664673
22.439526	83.684922	79.088211
22.491955	97.932816	89.998245
22.544384	101.890564	98.810196
22.596813	73.699951	69.942475
22.649242	75.159073	69.789886
22.701670	64.125061	61.931610
22.754099	86.755752	81.605911
22.806528	85.172653	82.359314
22.858957	55.503845	54.550171
22.911386	81.434250	77.619552
22.963814	98.705291	91.981888
23.016243	80.175400	75.435639
23.068672	87.823868	84.247589
23.121101	69.465637	67.033767
23.173530	68.445206	65.984726
23.225958	66.404343	64.201355
23.278387	91.133117	86.488724
23.330816	96.969605	91.447830
23.383245	56.324005	53.215027
23.435674	66.404342	64.420700
23.488102	49.905777	48.122406
23.540531	79.221726	75.225830
23.592960	88.224411	84.047317
23.645389	116.519928	111.188888
23.697818	108.690261	105.018616
23.750246	72.412491	70.714951
23.802675	84.342956	79.412460
23.855104	54.216385	52.328109
23.907533	62.360764	58.507919
23.959962	45.375824	44.288635
24.012390	52.967072	51.078796
24.064819	59.328080	58.193207
24.117248	60.834885	59.070587
24.169677	77.819825	74.510575
24.222106	107.641220	102.634430
24.274534	77.342987	73.919296
24.326963	86.374282	84.199905
24.379392	111.551285	107.564926
24.431821	71.859360	71.020127
24.484250	45.976638	43.916702
24.536678	51.536560	49.390793
24.589107	80.747604	76.894760
24.641536	80.738067	74.977874
24.693965	64.105987	61.168670
24.746394	57.773590	55.484772
24.798822	69.923401	67.272187
24.851251	75.340271	73.661805
24.903680	46.911239	45.385361
24.956109	54.559708	52.757263
25.008538	67.644119	63.714981
25.060966	74.491501	70.962906
25.113395	81.262588	76.913834
25.165824	75.092315	71.325302
25.218253	88.367462	84.543228
25.270682	67.119598	64.401627
25.323110	49.858093	47.893524
25.375539	61.111450	57.830810
25.427968	64.573288	61.130524
25.480397	105.018615	99.611283
25.532826	60.472488	57.449341
25.585254	80.642701	78.420639
25.637683	70.648193	67.653656
25.690112	46.501160	46.157837
25.742541	46.844482	43.964386
25.794970	77.333450	73.308944
25.847398	81.710815	78.468322
25.899827	172.185898	163.469314
25.952256	111.656189	105.686188
26.004685	70.514679	67.310333
26.057114	52.137375	50.945282
26.109542	79.336166	76.112747
26.161971	86.641312	83.866119
26.214400	61.044693	58.488846
26.266829	40.798187	40.369034
26.319258	47.798156	46.701431
26.371686	82.101822	76.847077
26.424115	59.833527	56.276322
26.476544	69.656372	66.204071
26.528973	102.643967	98.056793
26.581402	82.807541	78.535080
26.633830	69.723129	66.604614
26.686259	71.458817	68.120957
26.738688	61.321258	60.005188
26.791117	52.776336	51.193238
26.843546	62.341690	59.270859
26.895974	48.646927	46.682358
26.948403	56.285859	51.603317
27.000832	59.823989	58.059692
27.053261	45.852661	43.849946
27.105690	100.660324	95.930099
27.158118	68.016053	64.840317
27.210547	85.792542	83.293915
27.262976	64.983368	61.292648
27.315405	54.969788	51.345826
27.367834	85.325241	81.701279
27.420262	70.257187	65.135956
27.472691	54.960251	54.054260
27.525120	71.420670	68.721772
27.577549	78.153610	74.262619
27.629978	57.706833	55.618286
27.682406	117.864609	110.359192
27.734835	110.578537	101.881027
27.787264	111.103058	102.357865
27.839693	56.371689	52.862167
27.892122	72.526932	70.333481
27.944550	49.076081	45.995712
27.996979	78.411102	77.190399
28.049408	78.716278	75.092316
28.101837	98.752975	94.566345
28.154266	137.691498	128.126145
28.206694	93.202591	86.460114
28.259123	86.889267	83.856583
28.311552	125.379562	120.477677
28.363981	145.177841	141.191483
28.416410	139.722825	130.605698
28.468838	79.708100	77.590942
28.521267	60.405732	56.829453
28.573696	80.490112	79.317093
28.626125	64.802170	62.437057
28.678554	60.834885	56.667328
28.730982	58.345794	57.659149
28.783411	50.897599	47.864914
28.835840	46.901703	44.536591
28.888269	75.645447	72.011947
28.940698	55.532455	55.522919
28.993126	71.353912	68.216324
29.045555	113.191604	105.810166
29.097984	88.682175	85.248947
29.150413	97.255707	93.393326
29.202842	91.018677	86.669922
29.255270	90.169906	85.391998
29.307699	113.410950	106.935501
29.360128	48.151016	45.928955
29.412557	62.370300	58.126449
29.464986	72.193146	69.103241
29.517414	49.066544	47.426223
29.569843	48.160553	46.882630
29.622272	52.928924	50.725937
29.674701	58.221817	55.160522
29.727130	65.584182	60.491562
29.779558	51.193237	48.723221
29.831987	46.033860	45.118332
29.884416	50.830841	49.180985
29.936845	47.359466	44.202804
29.989274	38.280487	38.022995
30.041702	47.988891	45.642853
30.094131	74.214935	68.311691
30.146560	81.434250	77.381134
30.198989	51.727295	49.762726
30.251418	71.678162	68.750382
30.303846	105.209350	101.585388
30.356275	60.558319	59.938431
30.408704	58.479309	55.923462
30.461133	57.563781	54.979325
30.513562	88.357925	85.401535
30.565990	104.398728	99.773407
30.618419	57.725906	54.311752
30.670848	74.443817	70.934296
30.723277	51.422119	51.078797
30.775706	70.829391	68.206788
30.828134	79.832077	76.589585
30.880563	99.773407	93.498230
30.932992	90.970993	85.344314
30.985421	98.237991	90.541840
31.037850	110.235214	107.145309
31.090278	71.573257	67.300797
31.142707	118.570328	111.799240
31.195136	84.686279	81.653595
31.247565	88.367462	84.133149
31.299994	53.367615	51.078796
31.352422	84.180832	81.586838
31.404851	94.108581	87.614059
31.457280	95.605851	93.708039
31.509709	70.199967	66.452027
31.562138	50.477981	47.140121
31.614566	58.040619	57.058335
31.666995	81.243515	78.477859
31.719424	122.137069	115.766526
31.771853	80.013275	77.018738
31.824282	61.588288	58.555603
31.876710	94.604492	88.539124
31.929139	45.118332	44.250488
31.981568	45.633316	43.878555
32.033997	50.334930	46.215058
32.086426	45.938491	45.328141
32.138854	54.111481	52.070618
32.191283	80.099106	72.059631
32.243712	60.539246	58.345795
32.296141	158.872605	150.766373
32.348570	70.877075	67.882538
32.400998	49.781800	48.017502
32.453427	54.664611	53.329467
32.505856	58.183670	56.753158
32.558285	62.370300	58.259964
32.610714	61.426163	57.687759
32.663142	48.198700	47.063828
32.715571	57.229996	52.947998
32.768000	50.506592	49.724579
32.820429	58.784485	55.980683
32.872858	63.152313	60.424805
32.925286	76.055526	72.164535
32.977715	58.937072	57.477951
33.030144	87.747574	81.548691
33.082573	57.029724	54.168701
33.135002	50.001145	48.608780
33.187430	54.130554	52.251815
33.239859	58.431625	56.257248
33.292288	65.231323	61.597824
33.344717	74.434280	71.611404
33.397146	94.680786	91.314316
33.449574	75.473785	71.382523
33.502003	55.294036	54.244995
33.554432	72.526932	69.751739
33.606861	50.992966	49.924850
33.659290	57.077408	57.229996
33.711718	68.721772	67.167282
33.764147	57.134629	57.096481
33.816576	57.611465	55.341720
33.869005	54.626465	52.728653
33.921434	81.024170	76.980591
33.973862	60.367584	57.754517
34.026291	137.319565	129.337311
34.078720	92.468262	88.157653
34.131149	75.693130	74.119568
34.183578	48.198700	45.881271
34.236006	51.603318	49.448014
34.288435	63.629151	62.599182
34.340864	67.605972	65.307617
34.393293	70.991517	68.082809
34.445722	75.626373	73.080063
34.498150	77.323914	75.922012
34.550579	60.234070	56.686402
34.603008	65.402985	63.705444
34.655437	46.672821	44.927597
34.707866	75.092316	70.199966
34.760294	63.943862	59.804916
34.812723	72.736740	69.980621
34.865152	92.010498	85.144043
34.917581	66.452026	62.484741
34.970010	72.574615	69.217682
35.022438	99.372863	94.823837
35.074867	104.351044	99.153519
35.127296	68.817139	67.348480
35.179725	68.664551	64.411164
35.232154	107.784271	106.782913
35.284582	159.845352	149.440765
35.337011	55.789947	52.757264
35.389440	103.359222	97.799301
35.441869	83.131790	79.011917
35.494298	97.951889	93.860626
35.546726	63.772201	62.580108
35.599155	83.684922	79.908371
35.651584	70.133209	64.620971
35.704013	53.958893	53.844452
35.756442	66.957474	63.076020
35.808870	70.190429	67.586899
35.861299	49.648285	47.454834
35.913728	50.201416	47.645569
35.966157	44.231415	43.630600
36.018586	72.793960	66.823959
36.071014	92.611313	85.525513
36.123443	54.254532	51.679611
36.175872	48.427582	45.671463
36.228301	96.797944	93.383789
36.280730	70.943832	67.195892
36.333158	50.640106	50.573349
36.385587	88.205337	83.541871
36.438016	116.786957	111.074447
36.490445	89.445114	86.317062
36.542874	54.712295	51.174164
36.595302	73.328018	70.095062
36.647731	109.786988	106.182098
36.700160	84.781646	80.003738
36.752589	64.001084	60.844421
36.805018	62.170029	60.329437
36.857446	65.441131	60.787200
36.909875	43.058396	40.092468
36.962304	43.497086	43.697357
37.014733	51.937103	51.393509
37.067162	37.059784	37.307739
37.119590	51.708221	48.389435
37.172019	57.392121	56.753158
37.224448	58.393479	56.209564
37.276877	80.337524	75.063705
37.329306	59.385300	55.475235
37.381734	66.108704	62.561036
37.434163	63.629150	59.843063
37.486592	68.531036	65.746307
37.539021	62.808991	60.462952
37.591450	56.800842	55.103302
37.643878	70.648194	64.964294
37.696307	49.095153	49.123764
37.748736	70.428849	64.954757
37.801165	83.827972	79.851151
37.853594	64.077377	60.749054
37.906022	61.149597	57.172776
37.958451	71.134568	67.825317
38.010880	74.748993	71.649552
38.063309	49.552917	47.779083
38.115738	68.235398	64.496994
38.168166	40.197373	38.948059
38.220595	78.773499	77.228546
38.273024	61.016083	58.193207
38.325453	118.103027	111.951828
38.377882	63.743591	59.709548
38.430310	54.292679	53.310395
38.482739	110.406876	104.579926
38.535168	57.287216	55.685043
38.587597	48.408508	46.510696
38.640026	38.604736	37.698746
38.692454	47.149659	44.927598
38.744883	49.343109	47.645569
38.797312	72.164535	69.265366
38.849741	60.873031	58.660507
38.902170	54.559708	51.870346
38.954598	65.908432	61.388016
39.007027	59.347152	56.934356
39.059456	52.661896	49.238205
39.111885	90.856552	84.466934
39.164314	126.895905	119.009018
39.216742	83.217621	79.784393
39.269171	54.798127	52.881241
39.321600	85.048676	80.833435
39.374029	83.875656	78.926086
39.426458	95.291138	92.391968
39.478886	73.175430	70.266723
39.531315	51.717758	50.172805
39.583744	88.405609	85.792541
39.636173	66.375732	64.058304
39.688602	101.242065	95.472335
39.741030	61.178207	57.315826
39.793459	44.202805	42.324066
39.845888	42.514801	41.742324
39.898317	64.973832	62.360763
39.950746	115.718841	109.834671
40.003174	100.440979	96.445084
40.055603	51.288604	47.035218
40.108032	66.194534	62.322616
40.160461	53.977966	49.905777
40.212890	111.694336	108.909607
40.265318	83.179474	79.059601
40.317747	60.510635	58.298111
40.370176	84.400177	79.383850
40.422605	57.878494	53.825378
40.475034	55.675507	53.796768
40.527462	87.194442	82.616806
40.579891	82.550049	79.021454
40.632320	106.210708	100.402832
40.684749	80.633163	76.656342
40.737178	57.945251	55.465699
40.789606	45.557022	43.125153
40.842035	60.825348	57.449341
40.894464	60.424805	57.802200
40.946893	77.152253	72.765350
40.999322	59.099198	57.725906
41.051750	61.826706	57.868958
41.104179	63.743592	59.289932
41.156608	59.280395	56.982040
41.209037	60.091019	57.077408
41.261466	64.821243	62.007904
41.313894	57.573318	53.062439
41.366323	127.029419	119.876862
41.418752	53.768158	50.973892
41.471181	72.908401	70.667267
41.523610	91.123581	87.537766
41.576038	60.825348	56.505203
41.628467	71.992874	70.037842
41.680896	86.612702	81.033707
41.733325	45.967102	44.469834
41.785754	42.953491	40.512085
41.838182	59.957504	56.533814
41.890611	51.536560	48.770905
41.943040	73.270798	69.055557
41.995469	70.133210	64.945221
42.047898	92.926025	86.679459
42.100326	72.393417	69.065094
42.152755	91.152191	85.725784
42.205184	74.491501	71.725845
42.257613	65.164566	61.740875
42.310042	75.588227	72.870255
42.362470	60.453415	58.832169
42.414899	102.787018	97.131729
42.467328	51.259994	48.503876
42.519757	47.683716	47.979355
42.572186	51.708221	49.600602
42.624614	39.091110	38.223267
42.677043	56.400299	54.893494
42.729472	69.456100	67.110062
42.781901	57.182312	54.883957
42.834330	79.917907	76.665878
42.886758	72.097779	68.807602
42.939187	50.849914	50.086976
42.991616	54.264069	51.326752
43.044045	71.039200	65.908432
43.096474	92.983246	86.946488
43.148902	79.298019	75.922012
43.201331	73.032380	70.066452
43.253760	67.596435	62.370300
43.306189	55.646896	53.148269
43.358618	54.168701	53.758622
43.411046	110.101699	103.483201
43.463475	68.187714	65.536499
43.515904	66.041946	61.998368
43.568333	104.789734	98.552704
43.620762	63.495636	59.232712
43.673190	76.799393	74.043274
43.725619	62.932968	59.452057
43.778048	74.062347	70.123672
43.830477	83.217621	80.041885
43.882906	54.903030	53.834915
43.935334	81.357956	76.847077
43.987763	67.100525	63.495636
44.040192	61.445236	57.268142
44.092621	125.408173	118.389129
44.145050	97.198487	92.267990
44.197478	151.243210	144.300461
44.249907	57.964325	56.991578
44.302336	58.259964	56.095123
44.354765	95.787048	92.639923
44.407194	44.965744	42.695999
44.459622	39.615631	38.194657
44.512051	66.871644	63.972473
44.564480	73.394775	70.819855
44.616909	55.932999	51.803589
44.669338	58.364869	56.133270
44.721766	115.804672	110.883713
44.774195	70.266723	66.566468
44.826624	90.732574	84.829330
44.879053	108.804703	101.366043
44.931482	84.161758	79.717636
44.983910	70.161820	65.002441
45.036339	75.387955	71.744919
45.088768	47.464371	46.596527
45.141197	57.640075	55.503845
45.193626	80.032349	76.971054
45.246054	96.731185	92.983246
45.298483	95.443725	90.084076
45.350912	91.438294	86.975098
45.403341	112.199783	106.983185
45.455770	76.789856	73.318482
45.508198	58.574676	55.484771
45.560627	47.378540	45.251846
45.613056	86.631775	83.799362
45.665485	84.285736	79.736709
45.717914	65.355301	63.686371
45.770342	63.190460	60.615539
45.822771	78.210831	75.035096
45.875200	80.270767	75.397492
45.927629	66.604614	63.867569
45.980058	53.586960	52.480698
46.032486	65.374375	62.971115
46.084915	53.834915	50.296784
46.137344	52.499771	49.629211
46.189773	78.754425	73.184967
46.242202	84.867478	80.757142
46.294630	94.079971	89.502335
46.347059	55.980682	51.183701
46.399488	58.565140	56.743622
46.451917	93.564988	88.071823
46.504346	46.329498	44.078827
46.556774	78.582763	77.257157
46.609203	65.908432	65.660477
46.661632	112.390518	107.469558
46.714061	104.894638	99.382401
46.766490	81.586838	75.922012
46.818918	79.116821	74.605942
46.871347	98.953248	94.432830
46.923776	106.039047	100.831986
46.976205	43.859482	41.923523
47.028634	44.860840	43.735504
47.081062	87.623596	83.427429
47.133491	97.770691	90.389252
47.185920	84.247589	78.973770
47.238349	91.552734	85.945130
47.290778	89.979172	84.161758
47.343206	78.926086	74.386596
47.395635	60.815811	60.033798
47.448064	68.273544	64.077377
47.500493	58.765411	56.514740
47.552922	72.841645	71.468353
47.605350	149.374009	140.075684
47.657779	46.644211	46.339035
47.710208	53.853989	50.249099
47.762637	58.803558	54.731369
47.815066	79.164505	75.769424
47.867494	60.224533	59.280395
47.919923	68.531036	64.582825
47.972352	78.792572	76.065064
48.024781	55.093765	54.903030
48.077210	61.950683	59.223175
48.129638	41.790008	39.987564
48.182067	62.761307	58.832169
48.234496	49.762726	48.742294
48.286925	35.791397	33.760071
48.339354	42.409897	41.275025
48.391782	60.777664	56.610107
48.444211	61.101913	58.460235
48.496640	71.754455	69.112778
48.549069	108.528137	103.721619
48.601498	69.885254	66.957473
48.653926	68.511963	65.650940
48.706355	76.217651	71.039200
48.758784	59.099198	56.905747
48.811213	45.089722	43.020249
48.863642	74.529647	69.942475
48.916070	92.782974	88.357925
48.968499	53.958892	52.471161
49.020928	81.386566	77.514648
49.073357	48.475265	44.536591
49.125786	62.723160	60.558319
49.178214	80.471039	76.856614
49.230643	89.273452	85.573196
49.283072	85.859298	80.957413
49.335501	95.930099	90.208054
49.387930	95.262528	90.379715
49.440358	59.089661	56.667328
49.492787	54.025650	51.469803
49.545216	102.081299	95.815658
49.597645	87.623596	83.856583
49.650074	76.055526	73.242188
49.702502	44.832229	42.934417
49.754931	45.986176	44.412613
49.807360	67.434311	64.411164
49.859789	68.883895	66.566468
49.912218	80.261231	75.750351
49.964646	106.630325	102.033615
50.017075	85.525512	83.189010
50.069504	61.569214	58.126450
50.121933	45.709610	44.307709
50.174362	70.886612	67.796707
50.226790	84.438324	81.100464
50.279219	53.873062	52.251815
50.331648	58.250428	55.789947
50.384077	86.526871	81.081390
50.436506	75.082779	71.067810
50.488934	49.285888	46.672821
50.541363	59.366226	56.104660
50.593792	50.983429	47.616958
50.646221	79.450608	75.492858
50.698650	64.325333	61.149597
50.751078	116.252899	110.797882
50.803507	197.343826	186.719895
50.855936	74.682236	70.676804
50.908365	41.885376	40.750504
50.960794	50.277710	50.563812
51.013222	41.427612	40.769577
51.065651	60.348511	59.623718
51.118080	46.844482	44.450760
51.170509	59.146881	57.697297
51.222938	51.679612	49.152375
51.275366	79.278946	74.958801
51.327795	45.900345	45.280456
51.380224	40.159226	40.035248
51.432653	56.810379	56.171417
51.485082	87.385177	83.265304
51.537510	53.081513	51.660538
51.589939	42.247772	40.588379
51.642368	43.153763	42.133331
51.694797	51.851273	49.047470
51.747226	48.341751	46.319961
51.799654	59.194565	56.829453
51.852083	56.247711	55.198670
51.904512	46.081543	44.355393
51.956941	68.120957	65.526962
52.009370	122.337342	113.401413
52.061798	81.233978	77.314377
52.114227	57.744979	55.379868
52.166656	67.443848	64.172745
52.219085	59.585572	55.809021
52.271514	78.754425	75.149536
52.323942	72.793961	66.213607
52.376371	49.810409	46.434403
52.428800	109.291077	104.150772
52.481229	106.382370	100.831986
52.533658	45.337677	43.201447
52.586086	43.163299	39.854050
52.638515	48.580170	45.623779
52.690944	106.649399	102.882385
52.743373	109.472275	103.101731
52.795802	57.744980	55.713653
52.848230	58.870316	57.392121
52.900659	68.645477	65.507889
52.953088	70.056915	66.747665
53.005517	57.134628	53.806305
53.057946	55.065155	52.690506
53.110374	56.400299	54.969788
53.162803	77.190399	71.964264
53.215232	52.890777	50.058365
53.267661	71.353912	67.825317
53.320090	72.536468	68.969727
53.372518	36.230087	34.637451
53.424947	58.298111	54.750442
53.477376	110.712051	104.055405
53.529805	127.849579	121.707916
53.582234	68.416595	65.364838
53.634662	66.490173	61.912537
53.687091	50.106048	47.998428
53.739520	50.601960	48.408508
53.791949	79.288483	75.626373
53.844378	71.802139	68.321228
53.896806	53.930283	52.013398
53.949235	97.150802	90.522766
54.001664	121.622085	112.571716
54.054093	86.317062	81.586838
54.106522	86.307526	81.291199
54.158950	79.803466	77.571869
54.211379	96.454621	91.114044
54.263808	91.524124	86.231232
54.316237	64.868927	63.323974
54.368666	44.069290	42.495728
54.421094	52.022934	50.067902
54.473523	56.123734	53.939819
54.525952	73.614120	68.063736
54.578381	167.121888	158.433914
54.630810	112.533569	106.058121
54.683238	62.017441	58.250427
54.735667	64.239502	60.253143
54.788096	55.799485	53.386688
54.840525	63.676834	59.328080
54.892954	63.524246	60.644150
54.945382	61.378479	58.441162
54.997811	58.774948	56.257248
55.050240	48.503875	47.349930
55.102669	84.629059	81.453323
55.155098	78.582764	76.236724
55.207526	70.390701	67.071915
55.259955	74.405670	71.125031
55.312384	72.336197	70.571899
55.364813	51.412582	47.636032
55.417242	42.076111	40.855407
55.469670	47.149658	45.909881
55.522099	71.134568	68.855285
55.574528	81.796647	77.304840
55.626957	38.013458	37.231445
55.679386	57.392121	55.789947
55.731814	86.240769	80.347061
55.784243	51.918030	50.783158
55.836672	61.807633	59.280395
55.889101	71.983338	67.281723
55.941530	74.224472	70.695877
55.993958	53.777695	50.315857
56.046387	62.685012	58.994293
56.098816	40.264129	38.223267
56.151245	54.054260	52.070618
56.203674	68.483352	66.461563
56.256102	80.986023	76.293946
56.308531	100.584030	94.108581
56.360960	100.460053	96.406937
56.413389	92.372895	87.242126
56.465818	43.382644	42.085648
56.518246	58.851242	56.638717
56.570675	82.216263	79.460144
56.623104	66.099167	63.266754
56.675533	90.084076	85.172653
56.727962	67.939758	64.229965
56.780390	92.754364	89.263916
56.832819	71.907044	67.844391
56.885248	53.234100	51.374435
56.937677	97.055435	93.812943
56.990106	80.080032	74.911118
57.042534	78.926086	74.815750
57.094963	81.081390	78.277588
57.147392	129.785538	123.920440
57.199821	95.567703	87.251664
57.252250	80.385208	76.360703
57.304678	84.371567	80.823898
57.357107	73.299408	68.216324
57.409536	117.301941	110.540390
57.461965	113.134384	106.439591
57.514394	77.590942	74.243545
57.566822	55.332184	52.499772
57.619251	60.482025	56.915283
57.671680	54.855347	52.042007
57.724109	111.694336	105.075836
57.776538	75.693130	71.516036
57.828966	54.111480	52.833557
57.881395	43.296814	42.333602
57.933824	64.744950	61.807632
57.986253	87.547303	81.539154
58.038682	86.431503	83.274842
58.091110	89.483261	86.116791
58.143539	80.480576	78.477859
58.195968	89.111328	84.819794
58.248397	66.843032	62.847138
58.300826	62.265396	60.586929
58.353254	65.774918	61.626434
58.405683	60.405731	58.326721
58.458112	100.526810	94.566345
58.510541	75.254440	72.126388
58.562970	126.314163	117.654800
58.615398	131.931305	126.285553
58.667827	50.249099	47.121048
58.720256	88.434219	82.941056
58.772685	58.097839	55.303573
58.825114	78.887940	73.509216
58.877542	51.069260	48.274994
58.929971	71.763993	68.206787
58.982400	60.052872	56.934357
59.034829	72.059631	68.130494
59.087258	62.026978	60.586929
59.139686	73.413849	70.266723
59.192115	59.118271	55.570602
59.244544	61.407089	59.642792
59.296973	46.625138	44.021607
59.349402	73.757172	70.161819
59.401830	98.428727	91.075897
59.454259	99.792480	94.842910
59.506688	62.074661	59.099198
59.559117	66.576004	65.698623
59.611546	78.020095	74.415207
59.663974	82.998276	79.326629
59.716403	97.780227	94.585419
